Folder: EZ/examples/data

File: EIS CFO pH14 light.mpt
EC-Lab ASCII FILE
Nb header lines : 60

Staircase Potentio Electrochemical Impedance Spectroscopy (Mott-Schottky)

Run on channel : 1 (SN 0633)
User :
Electrode connection : standard
Ewe ctrl range : min = -10.00 V, max = 10.00 V
Ewe,I filtering : 50 kHz
Safety Limits :
	Do not start on E overload
Channel : Grounded
Acquisition started on : 01/18/2018 19:43:37
Saved on :
	File : pH14_EIS_light.mpr
	Directory : C:\Users\user\Desktop\Data\Florent\180117\1.7_O2\
	Host : 192.168.0.87
Device : SP-200 (SN 0001)
Address : 192.168.0.88
EC-Lab for windows v11.12 (software)
Internet server v11.12 (firmware)
Command interpretor v11.12 (firmware)
Electrode material :
Initial state :
Electrolyte :
Comments :
Cable : standard
Electrode surface area : 0.001 cm²
Characteristic mass : 0.001 g
Equivalent Weight : 0.000 g/eq.
Density : 0.000 g/cm3
Multi Sine          Single sine
Ei (V)              0.1000
vs.                 Ref
ts (h:m:s)          0:00:5.0000
record              1
dI                  0.000
unit dI             mA
dt (s)              0.100
fi                  1.000
unit fi             MHz
ff                  100.000
unit ff             mHz
Nd                  10
Points              per decade
spacing             Logarithmic
Va (mV)             25.0
pw                  0.10
Na                  5
corr                0
E range min (V)     -10.000
E range max (V)     10.000
I Range             Auto
Bandwidth           8
Ef (V)              -0.3000
vs.                 Ref
N                   20

freq/Hz	Re(Z)/Ohm	-Im(Z)/Ohm	|Z|/Ohm	Phase(Z)/deg	time/s	<Ewe>/V	<I>/mA	Cs/µF	Cs-2/µF-2	Cp/µF	Cp-2/µF-2	cycle number	I Range	|Ewe|/V	|I|/A	Re(Y)/Ohm-1	Im(Y)/Ohm-1	|Y|/Ohm-1	Phase(Y)/deg
0.0000000E+000	0.0000000E+000	0.0000000E+000	0.0000000E+000	0.0000000E+000	0.3806	0.100485	0.0170809	0.0000000E+000	0.0000000E+000	0.0000000E+000	0.0000000E+000	1	41	0.0000000E+000	0.0000000E+000	0.0000000E+000	0.0000000E+000	0.0000000E+000	0.0000000E+000
246211	40.4402	6.73143	40.9967	-9.45045	11.5021	0.100338	0.0106408	0.0960297	108.44	0.00258895	149195	1	39	0.0258042	0.000629422	0.0240612	0.00400507	0.0243922	9.45045
1.0334	1308.98	1231.26	1797.06	-43.2475	76.5729	0.100542	0.00665261	125.084	6.39139e-05	58.7185	0.000290035	1	41	0.0257941	1.43535e-05	0.00040533	0.000381263	0.000556465	43.2475
0.0000000E+000	0.0000000E+000	0.0000000E+000	0.0000000E+000	0.0000000E+000	302.91	0.0805033	0.0041889	0.0000000E+000	0.0000000E+000	0.0000000E+000	0.0000000E+000	2	42	0.0000000E+000	0.0000000E+000	0.0000000E+000	0.0000000E+000	0.0000000E+000	0.0000000E+000
21.5517	117.73	237.919	265.454	-63.6723	349.385	0.0805252	0.00496162	31.0392	0.00103796	24.9339	0.0016085	2	40	0.0257364	9.69524e-05	0.00167074	0.00337638	0.00376714	63.6723
0.0000000E+000	0.0000000E+000	0.0000000E+000	0.0000000E+000	0.0000000E+000	600.751	0.0605269	0.00330256	0.0000000E+000	0.0000000E+000	0.0000000E+000	0.0000000E+000	3	42	0.0000000E+000	0.0000000E+000	0.0000000E+000	0.0000000E+000	0.0000000E+000	0.0000000E+000
448.994	51.1526	18.2683	54.3169	-19.6533	633.484	0.0605302	0.0064513	19.4036	0.00265606	2.19487	0.207579	3	39	0.0257162	0.000473447	0.017338	0.00619197	0.0184105	19.6533
0.0000000E+000	0.0000000E+000	0.0000000E+000	0.0000000E+000	0.0000000E+000	898.097	0.0405063	0.00237327	0.0000000E+000	0.0000000E+000	0.0000000E+000	0.0000000E+000	4	42	0.0000000E+000	0.0000000E+000	0.0000000E+000	0.0000000E+000	0.0000000E+000	0.0000000E+000
9376.82	45.7233	3.97539	45.8958	-4.96906	918.212	0.0405233	0.00575621	4.26958	0.0548567	0.0320331	974.548	4	39	0.0253426	0.000552177	0.0217066	0.00188727	0.0217885	4.96906
0.0000000E+000	0.0000000E+000	0.0000000E+000	0.0000000E+000	0.0000000E+000	1195.45	0.0205394	-0.0020507	0.0000000E+000	0.0000000E+000	0.0000000E+000	0.0000000E+000	5	42	0.0000000E+000	0.0000000E+000	0.0000000E+000	0.0000000E+000	0.0000000E+000	0.0000000E+000
194922	36.0692	5.31188	36.4582	-8.37769	1207.22	0.0203509	0.00521893	0.153713	42.3231	0.003263	93921.7	5	39	0.0258623	0.000709367	0.027136	0.00399629	0.0274286	8.37769
0.818238	1471.37	1777.91	2307.79	-50.3894	1277.84	0.0205588	0.0030579	109.403	8.35489e-05	64.9318	0.000237184	5	41	0.0256042	1.10947e-05	0.000276266	0.000333823	0.000433314	50.3894
0.0000000E+000	0.0000000E+000	0.0000000E+000	0.0000000E+000	0.0000000E+000	1497.98	0.000458178	0.00228623	0.0000000E+000	0.0000000E+000	0.0000000E+000	0.0000000E+000	6	42	0.0000000E+000	0.0000000E+000	0.0000000E+000	0.0000000E+000	0.0000000E+000	0.0000000E+000
17.0579	145.889	311.032	343.547	-64.8711	1545.33	0.000511097	0.00289717	29.9978	0.00111127	24.5882	0.00165404	6	40	0.0256189	7.45718e-05	0.00123609	0.00263531	0.00291081	64.8711
0.0000000E+000	0.0000000E+000	0.0000000E+000	0.0000000E+000	0.0000000E+000	1795.81	-0.0194994	0.00181099	0.0000000E+000	0.0000000E+000	0.0000000E+000	0.0000000E+000	7	42	0.0000000E+000	0.0000000E+000	0.0000000E+000	0.0000000E+000	0.0000000E+000	0.0000000E+000
355.341	54.7688	32.9372	63.91	-31.0221	1829.89	-0.0194925	0.0049417	13.5984	0.00540784	3.6118	0.0766571	7	39	0.0255736	0.000400151	0.013409	0.00806398	0.015647	31.0221
0.0000000E+000	0.0000000E+000	0.0000000E+000	0.0000000E+000	0.0000000E+000	2103.49	-0.0394768	0.00159205	0.0000000E+000	0.0000000E+000	0.0000000E+000	0.0000000E+000	8	42	0.0000000E+000	0.0000000E+000	0.0000000E+000	0.0000000E+000	0.0000000E+000	0.0000000E+000
7540.05	44.6132	6.59997	45.0988	-8.41516	2124.16	-0.0394318	0.0046833	3.19818	0.0977671	0.0684949	213.149	8	39	0.0254985	0.000565392	0.0219348	0.00324498	0.0221736	8.41516
0.0000000E+000	0.0000000E+000	0.0000000E+000	0.0000000E+000	0.0000000E+000	2408.57	-0.0594953	7.41575e-05	0.0000000E+000	0.0000000E+000	0.0000000E+000	0.0000000E+000	9	42	0.0000000E+000	0.0000000E+000	0.0000000E+000	0.0000000E+000	0.0000000E+000	0.0000000E+000
154316	35.0105	3.32432	35.168	-5.42409	2421.61	-0.0596509	0.0232527	0.310245	10.3894	0.00277215	130127	9	38	0.025688	0.000730438	0.0283076	0.00268787	0.0284349	5.42409
0.647803	2840.2	2908.13	4064.96	-45.6771	2499.07	-0.0594473	0.0017991	84.4819	0.000140111	43.2392	0.000534865	9	41	0.0252578	6.21354e-06	0.000171884	0.000175995	0.000246005	45.6771
0.0000000E+000	0.0000000E+000	0.0000000E+000	0.0000000E+000	0.0000000E+000	2716.37	-0.0794919	0.00122873	0.0000000E+000	0.0000000E+000	0.0000000E+000	0.0000000E+000	10	42	0.0000000E+000	0.0000000E+000	0.0000000E+000	0.0000000E+000	0.0000000E+000	0.0000000E+000
13.5009	561.87	961.972	1114.04	-59.7116	2764.63	-0.0794707	0.00171931	12.2545	0.00665901	9.13729	0.0119775	10	40	0.0252807	2.26928e-05	0.000452724	0.000775104	0.000897633	59.7116
0.0000000E+000	0.0000000E+000	0.0000000E+000	0.0000000E+000	0.0000000E+000	3018.95	-0.0994575	0.000734054	0.0000000E+000	0.0000000E+000	0.0000000E+000	0.0000000E+000	11	42	0.0000000E+000	0.0000000E+000	0.0000000E+000	0.0000000E+000	0.0000000E+000	0.0000000E+000
281.35	61.9343	93.7882	112.393	-56.5607	3053.82	-0.0994767	0.00346377	6.03149	0.0274885	4.19997	0.0566902	11	39	0.0252644	0.000224787	0.00490293	0.0074246	0.00889738	56.5607
0.0000000E+000	0.0000000E+000	0.0000000E+000	0.0000000E+000	0.0000000E+000	3319.53	-0.119447	5.68808e-05	0.0000000E+000	0.0000000E+000	0.0000000E+000	0.0000000E+000	12	42	0.0000000E+000	0.0000000E+000	0.0000000E+000	0.0000000E+000	0.0000000E+000	0.0000000E+000
5965.69	43.9573	10.5646	45.209	-13.5141	3341.32	-0.119426	0.00345596	2.52526	0.156815	0.1379	52.5864	12	39	0.0255931	0.000566106	0.0215071	0.00516897	0.0221195	13.5141
0.0000000E+000	0.0000000E+000	0.0000000E+000	0.0000000E+000	0.0000000E+000	3619.47	-0.139443	-0.000922234	0.0000000E+000	0.0000000E+000	0.0000000E+000	0.0000000E+000	13	42	0.0000000E+000	0.0000000E+000	0.0000000E+000	0.0000000E+000	0.0000000E+000	0.0000000E+000
122168	34.5667	3.35296	34.7289	-5.54035	3633.31	-0.139607	0.0242679	0.388539	6.62418	0.00362167	76239.8	13	38	0.0253533	0.000730034	0.0286599	0.00278001	0.0287944	5.54035
0.513338	4505.21	3861.77	5933.82	-40.6025	3721.61	-0.139418	0.000113011	80.2842	0.000155146	34.0043	0.000864832	13	42	0.0252609	4.25711e-06	0.000127952	0.000109678	0.000168525	40.6025
0.0000000E+000	0.0000000E+000	0.0000000E+000	0.0000000E+000	0.0000000E+000	3923.98	-0.159477	-0.000750028	0.0000000E+000	0.0000000E+000	0.0000000E+000	0.0000000E+000	14	42	0.0000000E+000	0.0000000E+000	0.0000000E+000	0.0000000E+000	0.0000000E+000	0.0000000E+000
10.6874	1126.94	1326.09	1740.26	-49.6416	3973.79	-0.159473	-0.000431698	11.2298	0.00792964	6.52068	0.0235188	14	41	0.0252358	1.45012e-05	0.000372109	0.00043787	0.000574626	49.6416
0.0000000E+000	0.0000000E+000	0.0000000E+000	0.0000000E+000	0.0000000E+000	4223.5	-0.179425	-0.00146726	0.0000000E+000	0.0000000E+000	0.0000000E+000	0.0000000E+000	15	42	0.0000000E+000	0.0000000E+000	0.0000000E+000	0.0000000E+000	0.0000000E+000	0.0000000E+000
222.79	77.2532	161.856	179.347	-64.485	4259.53	-0.179418	0.00130715	4.41363	0.0513344	3.59471	0.0773877	15	39	0.025247	0.000140772	0.00240175	0.00503199	0.00557578	64.485
0.0000000E+000	0.0000000E+000	0.0000000E+000	0.0000000E+000	0.0000000E+000	4523.09	-0.199421	-0.00217952	0.0000000E+000	0.0000000E+000	0.0000000E+000	0.0000000E+000	16	42	0.0000000E+000	0.0000000E+000	0.0000000E+000	0.0000000E+000	0.0000000E+000	0.0000000E+000
4641.48	45.0605	14.2614	47.2634	-17.5623	4545.89	-0.199383	0.00052768	2.40437	0.172981	0.218915	20.8665	16	39	0.0256862	0.00054347	0.0201718	0.00638428	0.021158	17.5623
0.0000000E+000	0.0000000E+000	0.0000000E+000	0.0000000E+000	0.0000000E+000	4823.65	-0.219438	-0.0031636	0.0000000E+000	0.0000000E+000	0.0000000E+000	0.0000000E+000	17	42	0.0000000E+000	0.0000000E+000	0.0000000E+000	0.0000000E+000	0.0000000E+000	0.0000000E+000
96718.7	34.956	3.66377	35.1474	-5.98338	4838	-0.219559	0.0205925	0.44914	4.95721	0.00488034	41985.6	17	38	0.0257044	0.00073133	0.0282966	0.00296579	0.0284516	5.98338
0.406393	6166.81	4558.09	7668.49	-36.4693	4936.53	-0.219418	-0.00262825	85.9195	0.000135462	30.3555	0.00108524	17	41	0.0252632	3.29441e-06	0.000104868	7.75109e-05	0.000130404	36.4693
0.0000000E+000	0.0000000E+000	0.0000000E+000	0.0000000E+000	0.0000000E+000	5132.69	-0.239424	-0.00386812	0.0000000E+000	0.0000000E+000	0.0000000E+000	0.0000000E+000	18	42	0.0000000E+000	0.0000000E+000	0.0000000E+000	0.0000000E+000	0.0000000E+000	0.0000000E+000
8.46423	1515.94	1552.05	2169.55	-45.6743	5183.16	-0.2394	-0.00377817	12.1151	0.00681313	6.20011	0.0260136	18	41	0.025223	1.16259e-05	0.000322065	0.000329736	0.000460925	45.6743
0.0000000E+000	0.0000000E+000	0.0000000E+000	0.0000000E+000	0.0000000E+000	5430.1	-0.259416	-0.00530914	0.0000000E+000	0.0000000E+000	0.0000000E+000	0.0000000E+000	19	41	0.0000000E+000	0.0000000E+000	0.0000000E+000	0.0000000E+000	0.0000000E+000	0.0000000E+000
176.298	94.0019	208.668	228.864	-65.7492	5467.01	-0.259426	-0.0026931	4.3263	0.0534277	3.59645	0.0773129	19	39	0.0252273	0.000110228	0.00179466	0.00398383	0.00436941	65.7492
0.0000000E+000	0.0000000E+000	0.0000000E+000	0.0000000E+000	0.0000000E+000	5727.54	-0.279363	-0.00690075	0.0000000E+000	0.0000000E+000	0.0000000E+000	0.0000000E+000	20	41	0.0000000E+000	0.0000000E+000	0.0000000E+000	0.0000000E+000	0.0000000E+000	0.0000000E+000
3673.82	46.8625	18.1084	50.2395	-21.1273	5751.39	-0.279394	-0.00413618	2.39233	0.174726	0.310808	10.3518	20	39	0.0256651	0.000510854	0.0185667	0.00717447	0.0199046	21.1273
0.0000000E+000	0.0000000E+000	0.0000000E+000	0.0000000E+000	0.0000000E+000	6025.03	-0.299418	-0.00841053	0.0000000E+000	0.0000000E+000	0.0000000E+000	0.0000000E+000	21	41	0.0000000E+000	0.0000000E+000	0.0000000E+000	0.0000000E+000	0.0000000E+000	0.0000000E+000
76572.2	35.3005	4.12407	35.5406	-6.66352	6040.06	-0.299612	0.0198232	0.50399	3.93691	0.00678618	21714.5	21	38	0.0253519	0.000713323	0.0279468	0.00326495	0.0281368	6.66352
0.321502	7036.8	2815.71	7579.23	-21.8084	6153.83	-0.299412	-0.00839413	175.812	3.23522e-05	24.2646	0.00169845	21	41	0.0252185	3.32731e-06	0.000122497	4.9016e-05	0.000131939	21.8084
0.100051	9027.72	1753.55	9196.45	-10.9923	6323	-0.299422	-0.00842022	907.156	1.21517e-06	32.9819	0.00091928	21	41	0.0252167	2.742e-06	0.000106743	2.07337e-05	0.000108738	10.9923